{
  "resourceType": "Bundle",
  "id": "Bundle-FulsomeClinicalScenario2",
  "meta": {
    "profile": [
      "http://fhir.infoway-inforoute.ca/io/psca/StructureDefinition/bundle-ca-ps"
    ]
  },
  "identifier": {
    "system": "http://fictional-identifier-system-uri.com",
    "value": "JSONBUNDLE2"
  },
  "type": "document",
  "timestamp": "2023-01-05T14:30:00+01:00",
  "entry": [
    {
      "fullUrl": "Composition/c5aa5a1c-7e76-4ea2-a489-226059c84be3",
      "resource": {
        "resourceType": "Composition",
        "id": "CompositionExample",
        "meta": {
          "profile": [
            "http://fhir.infoway-inforoute.ca/io/psca/StructureDefinition/composition-ca-ps"
          ]
        },
        "text": {
          "status": "additional",
          "div": "<div xmlns=\"http://www.w3.org/1999/xhtml\">Primary Problem: Robert is a normally well-controlled Type 2 diabetic with well-managed hypertension. He experiences occassional gout attacks.\n\nSignificant Clinical Event Requiring Patient Summary: Robert has been been experiencing some neuropathy he is assuming is caused by his diabetes, and his gout is flaring up. He needs to see a GP in Yellowknife and may need a referral. \n\nDr Allan GP (Prac ID 9600), Robert's most responsible GP in Ontario, is wanting to communicate Robert's clinical information to Dr Smith (Prac ID 2222) a GP in Alberta where Robert is working.</div>"
        },
        "status": "final",
        "type": {
          "coding": [
            {
              "system": "http://loinc.org",
              "code": "60591-5",
              "display": "Patient summary Document"
            }
          ]
        },
        "subject": {
          "reference": "Patient/d520ecd1-76a0-4894-b895-b8a5a971954e"
        },
        "date": "2022-01-05",
        "author": [
          {
            "reference": "Practitioner/a3cf9ac3-c323-490e-87e4-88fbf65b9600"
          }
        ],
        "title": "Patient Summary PS-CA",
        "section": [
          {
            "title": "Medications",
            "code": {
              "coding": [
                {
                  "system": "http://loinc.org",
                  "code": "10160-0"
                }
              ]
            },
            "text": {
              "status": "additional",
              "div": "<div xmlns=\"http://www.w3.org/1999/xhtml\">Medications</div>"
            },
            "entry": [
              {
                "reference": "MedicationStatement/03cd9a05-597b-4d34-a203-ac5d8134eabd"
              },
              {
                "reference": "MedicationStatement/407c998a-d316-4172-a01f-21f5849113ee"
              },
              {
                "reference": "MedicationStatement/d0ef4649-c530-4fe9-99e5-3dde41451520"
              },
              {
                "reference": "MedicationStatement/d88affe3-737a-4f4a-bcc3-a2e415c6c849"
              },
              {
                "reference": "MedicationStatement/ff7e6c12-aab7-4d4f-94e1-82204fe896e9"
              }
            ]
          },
          {
            "title": "Allergies and Intolerances",
            "code": {
              "coding": [
                {
                  "system": "http://loinc.org",
                  "code": "48765-2"
                }
              ]
            },
            "text": {
              "status": "additional",
              "div": "<div xmlns=\"http://www.w3.org/1999/xhtml\">Allergies and Intolerances</div>"
            },
            "entry": [
              {
                "reference": "AllergyIntolerance/ceea9c48-759d-4636-a11e-0a067b32973a"
              },
              {
                "reference": "AllergyIntolerance/96960895-95ed-4516-ad73-eea8647afb80"
              }
            ]
          },
          {
            "title": "Problem List",
            "code": {
              "coding": [
                {
                  "system": "http://loinc.org",
                  "code": "11450-4"
                }
              ]
            },
            "text": {
              "status": "additional",
              "div": "<div xmlns=\"http://www.w3.org/1999/xhtml\">Current list of problems</div>"
            },
            "entry": [
              {
                "reference": "Condition/3ea95c2b-cd7d-4ad4-b5f7-10c6563180e7"
              },
              {
                "reference": "Condition/56413e31-e24a-4bfe-b85f-70a07dd1a03b"
              },
              {
                "reference": "Condition/3e464c5b-4555-4521-aa8e-c233a28abc68"
              },
              {
                "reference": "Condition/6fa1d634-89ee-4402-9642-5cb8f309edaf"
              }
            ]
          },
          {
            "title": "Past History of Illness",
            "code": {
              "coding": [
                {
                  "system": "http://loinc.org",
                  "code": "11348-0"
                }
              ]
            },
            "text": {
              "status": "additional",
              "div": "<div xmlns=\"http://www.w3.org/1999/xhtml\">Past problems</div>"
            },
            "entry": [
              {
                "reference": "Condition/92e9b7a6-7647-4cf7-8feb-4027b59cba4b"
              }
            ]
          },
          {
            "title": "History of Procedures",
            "code": {
              "coding": [
                {
                  "system": "http://loinc.org",
                  "code": "47519-4"
                }
              ]
            },
            "text": {
              "status": "additional",
              "div": "<div xmlns=\"http://www.w3.org/1999/xhtml\">Past procedures</div>"
            },
            "entry": [
              {
                "reference": "Procedure/1ab3d8c8-f598-488e-a85e-781fc093a58e"
              },
              {
                "reference": "Procedure/97a5cddb-bd42-47d6-8c95-1cd709bd9e75"
              },
              {
                "reference": "Procedure/84596160-3d4a-4b93-a6d2-26b867b83b69"
              }
            ]
          },
          {
            "title": "Vital Signs",
            "code": {
              "coding": [
                {
                  "system": "http://loinc.org",
                  "code": "8716-3"
                }
              ]
            },
            "text": {
              "status": "additional",
              "div": "<div xmlns=\"http://www.w3.org/1999/xhtml\">Vital Signs</div>"
            },
            "entry": [
              {
                "reference": "Observation/35137582-aca8-4b29-9fbc-d27693dbace8"
              },
              {
                "reference": "Observation/67e42ace-4563-4cb4-9e5f-09314495a4e2"
              },
              {
                "reference": "Observation/f560d566-bce3-4cc2-b076-a983f1cfc179"
              },
              {
                "reference": "Observation/04efa9cc-56d3-4d7b-bf2d-133bcde0fca2"
              },
              {
                "reference": "Observation/e27162fe-3b06-4ff6-9043-b96f30ba27fe"
              }
            ]
          }
        ]
      }
    },
    {
      "fullUrl": "Practitioner/a3cf9ac3-c323-490e-87e4-88fbf65b9600",
      "resource": {
        "resourceType": "Practitioner",
        "id": "a3cf9ac3-c323-490e-87e4-88fbf65b9600",
        "meta": {
          "profile": [
            "http://hl7.org/fhir/ca/baseline/StructureDefinition/profile-practitioner"
          ]
        },
        "text": {
          "status": "generated",
          "div": "<div xmlns=\"http://www.w3.org/1999/xhtml\"><p><b>Generated Narrative: Practitioner</b></p><div style=\"display: inline-block; background-color: #d9e0e7; padding: 6px; margin: 4px; border: 1px solid #8da1b4; border-radius: 5px; line-height: 60%\"><p style=\"margin-bottom: 0px\">Resource Practitioner \"a3cf9ac3-c323-490e-87e4-88fbf65b9600\" </p></div><p><b>name</b>: Allan </p></div>"
        },
        "name": [
          {
            "family": "Allan",
            "prefix": [
              "Dr."
            ]
          }
        ]
      }
    },
    {
      "fullUrl": "Patient/d520ecd1-76a0-4894-b895-b8a5a971954e",
      "resource": {
        "resourceType": "Patient",
        "id": "d520ecd1-76a0-4894-b895-b8a5a971954e",
        "meta": {
          "profile": [
            "http://fhir.infoway-inforoute.ca/io/psca/StructureDefinition/patient-ca-ps"
          ]
        },
        "text": {
          "status": "generated",
          "div": "<div xmlns=\"http://www.w3.org/1999/xhtml\"><p><b>Generated Narrative: Patient</b></p><div style=\"display: inline-block; background-color: #d9e0e7; padding: 6px; margin: 4px; border: 1px solid #8da1b4; border-radius: 5px; line-height: 60%\"><p style=\"margin-bottom: 0px\">Resource Patient \"d520ecd1-76a0-4894-b895-b8a5a971954e\" </p></div><p><b>identifier</b>: id: 794703280</p><p><b>name</b>: Robert Gray </p><p><b>gender</b>: male</p><p><b>birthDate</b>: 1961-07-23</p><p><b>deceased</b>: false</p><p><b>address</b>: 4100 Meadowlark Crescent, Burlington, Ontario</p></div>"
        },
        "identifier": [
          {
            "use": "official",
            "type": {
              "coding": [
                {
                  "system": "http://terminology.hl7.org/CodeSystem/v2-0203",
                  "code": "JHN"
                }
              ]
            },
            "system": "https://fhir.infoway-inforoute.ca/NamingSystem/ca-on-patient-hcn",
            "value": "794703280"
          }
        ],
        "name": [
          {
            "family": "Gray",
            "given": [
              "Robert"
            ]
          }
        ],
        "gender": "male",
        "birthDate": "1961-07-23",
        "deceasedBoolean": false,
        "address": [
          {
            "text": "4100 Meadowlark Crescent, Burlington, Ontario"
          }
        ]
      }
    },
    {
      "fullUrl": "MedicationStatement/03cd9a05-597b-4d34-a203-ac5d8134eabd",
      "resource": {
        "resourceType": "MedicationStatement",
        "id": "03cd9a05-597b-4d34-a203-ac5d8134eabd",
        "meta": {
          "profile": [
            "http://fhir.infoway-inforoute.ca/io/psca/StructureDefinition/medicationstatement-ca-ps"
          ]
        },
        "text": {
          "status": "generated",
          "div": "<div xmlns=\"http://www.w3.org/1999/xhtml\"><p><b>Generated Narrative: MedicationStatement</b></p><div style=\"display: inline-block; background-color: #d9e0e7; padding: 6px; margin: 4px; border: 1px solid #8da1b4; border-radius: 5px; line-height: 60%\"><p style=\"margin-bottom: 0px\">Resource MedicationStatement \"03cd9a05-597b-4d34-a203-ac5d8134eabd\" </p></div><p><b>status</b>: active</p><p><b>medication</b>: gliclazide <span style=\"background: LightGoldenRodYellow; margin: 4px; border: 1px solid khaki\"> (canadianclinicaldrugdataset#9000357)</span></p><p><b>subject</b>: <a href=\"#Patient_d520ecd1-76a0-4894-b895-b8a5a971954e\">See above (Patient/d520ecd1-76a0-4894-b895-b8a5a971954e)</a></p><p><b>effective</b>: 2022-01-05</p></div>"
        },
        "status": "active",
        "medicationCodeableConcept": {
          "coding": [
            {
              "system": "https://fhir.infoway-inforoute.ca/CodeSystem/canadianclinicaldrugdataset",
              "code": "9000357",
              "display": "gliclazide"
            }
          ],
          "text": "gliclazide"
        },
        "subject": {
          "reference": "Patient/d520ecd1-76a0-4894-b895-b8a5a971954e"
        },
        "effectiveDateTime": "2022-01-05",
        "dosage": [
          {
            "text": "1 bid"
          }
        ]
      }
    },
    {
      "fullUrl": "MedicationStatement/407c998a-d316-4172-a01f-21f5849113ee",
      "resource": {
        "resourceType": "MedicationStatement",
        "id": "407c998a-d316-4172-a01f-21f5849113ee",
        "meta": {
          "profile": [
            "http://fhir.infoway-inforoute.ca/io/psca/StructureDefinition/medicationstatement-ca-ps"
          ]
        },
        "text": {
          "status": "generated",
          "div": "<div xmlns=\"http://www.w3.org/1999/xhtml\"><p><b>Generated Narrative: MedicationStatement</b></p><div style=\"display: inline-block; background-color: #d9e0e7; padding: 6px; margin: 4px; border: 1px solid #8da1b4; border-radius: 5px; line-height: 60%\"><p style=\"margin-bottom: 0px\">Resource MedicationStatement \"407c998a-d316-4172-a01f-21f5849113ee\" </p></div><p><b>status</b>: active</p><p><b>medication</b>: perindopril erbumine 4 mg oral tablet <span style=\"background: LightGoldenRodYellow; margin: 4px; border: 1px solid khaki\"> (canadianclinicaldrugdataset#9000540 \"perindopril\")</span></p><p><b>subject</b>: <a href=\"#Patient_d520ecd1-76a0-4894-b895-b8a5a971954e\">See above (Patient/d520ecd1-76a0-4894-b895-b8a5a971954e)</a></p><p><b>effective</b>: 2022-01-05</p></div>"
        },
        "status": "active",
        "medicationCodeableConcept": {
          "coding": [
            {
              "system": "https://fhir.infoway-inforoute.ca/CodeSystem/canadianclinicaldrugdataset",
              "code": "9000540",
              "display": "perindopril"
            }
          ],
          "text": "perindopril erbumine 4 mg oral tablet"
        },
        "subject": {
          "reference": "Patient/d520ecd1-76a0-4894-b895-b8a5a971954e"
        },
        "effectiveDateTime": "2022-01-05",
        "dosage": [
          {
            "text": "1 od"
          }
        ]
      }
    },
    {
      "fullUrl": "MedicationStatement/d0ef4649-c530-4fe9-99e5-3dde41451520",
      "resource": {
        "resourceType": "MedicationStatement",
        "id": "d0ef4649-c530-4fe9-99e5-3dde41451520",
        "meta": {
          "profile": [
            "http://fhir.infoway-inforoute.ca/io/psca/StructureDefinition/medicationstatement-ca-ps"
          ]
        },
        "text": {
          "status": "generated",
          "div": "<div xmlns=\"http://www.w3.org/1999/xhtml\"><p><b>Generated Narrative: MedicationStatement</b></p><div style=\"display: inline-block; background-color: #d9e0e7; padding: 6px; margin: 4px; border: 1px solid #8da1b4; border-radius: 5px; line-height: 60%\"><p style=\"margin-bottom: 0px\">Resource MedicationStatement \"d0ef4649-c530-4fe9-99e5-3dde41451520\" </p></div><p><b>status</b>: active</p><p><b>medication</b>: pioglitazone 30mg <span style=\"background: LightGoldenRodYellow; margin: 4px; border: 1px solid khaki\"> (canadianclinicaldrugdataset#9000540 \"pioglitazone\")</span></p><p><b>subject</b>: <a href=\"#Patient_d520ecd1-76a0-4894-b895-b8a5a971954e\">See above (Patient/d520ecd1-76a0-4894-b895-b8a5a971954e)</a></p><p><b>effective</b>: 2022-01-05</p></div>"
        },
        "status": "active",
        "medicationCodeableConcept": {
          "coding": [
            {
              "system": "https://fhir.infoway-inforoute.ca/CodeSystem/canadianclinicaldrugdataset",
              "code": "9000540",
              "display": "pioglitazone"
            }
          ],
          "text": "pioglitazone 30mg"
        },
        "subject": {
          "reference": "Patient/d520ecd1-76a0-4894-b895-b8a5a971954e"
        },
        "effectiveDateTime": "2022-01-05",
        "dosage": [
          {
            "text": "1 od"
          }
        ]
      }
    },
    {
      "fullUrl": "MedicationStatement/d88affe3-737a-4f4a-bcc3-a2e415c6c849",
      "resource": {
        "resourceType": "MedicationStatement",
        "id": "d88affe3-737a-4f4a-bcc3-a2e415c6c849",
        "meta": {
          "profile": [
            "http://fhir.infoway-inforoute.ca/io/psca/StructureDefinition/medicationstatement-ca-ps"
          ]
        },
        "text": {
          "status": "generated",
          "div": "<div xmlns=\"http://www.w3.org/1999/xhtml\"><p><b>Generated Narrative: MedicationStatement</b></p><div style=\"display: inline-block; background-color: #d9e0e7; padding: 6px; margin: 4px; border: 1px solid #8da1b4; border-radius: 5px; line-height: 60%\"><p style=\"margin-bottom: 0px\">Resource MedicationStatement \"d88affe3-737a-4f4a-bcc3-a2e415c6c849\" </p></div><p><b>status</b>: active</p><p><b>medication</b>: metoprolol tartrate 50 mg oral tablet <span style=\"background: LightGoldenRodYellow; margin: 4px; border: 1px solid khaki\"> (canadianclinicaldrugdataset#9000101)</span></p><p><b>subject</b>: <a href=\"#Patient_d520ecd1-76a0-4894-b895-b8a5a971954e\">See above (Patient/d520ecd1-76a0-4894-b895-b8a5a971954e)</a></p><p><b>effective</b>: 2022-01-05</p></div>"
        },
        "status": "active",
        "medicationCodeableConcept": {
          "coding": [
            {
              "system": "https://fhir.infoway-inforoute.ca/CodeSystem/canadianclinicaldrugdataset",
              "code": "9000101",
              "display": "metoprolol tartrate 50 mg oral tablet"
            }
          ],
          "text": "metoprolol tartrate 50 mg oral tablet"
        },
        "subject": {
          "reference": "Patient/d520ecd1-76a0-4894-b895-b8a5a971954e"
        },
        "effectiveDateTime": "2022-01-05",
        "dosage": [
          {
            "text": "bid"
          }
        ]
      }
    },
    {
      "fullUrl": "MedicationStatement/ff7e6c12-aab7-4d4f-94e1-82204fe896e9",
      "resource": {
        "resourceType": "MedicationStatement",
        "id": "ff7e6c12-aab7-4d4f-94e1-82204fe896e9",
        "meta": {
          "profile": [
            "http://fhir.infoway-inforoute.ca/io/psca/StructureDefinition/medicationstatement-ca-ps"
          ]
        },
        "text": {
          "status": "generated",
          "div": "<div xmlns=\"http://www.w3.org/1999/xhtml\"><p><b>Generated Narrative: MedicationStatement</b></p><div style=\"display: inline-block; background-color: #d9e0e7; padding: 6px; margin: 4px; border: 1px solid #8da1b4; border-radius: 5px; line-height: 60%\"><p style=\"margin-bottom: 0px\">Resource MedicationStatement \"ff7e6c12-aab7-4d4f-94e1-82204fe896e9\" </p></div><p><b>status</b>: active</p><p><b>medication</b>: indomethacin 50 mg oral capsule <span style=\"background: LightGoldenRodYellow; margin: 4px; border: 1px solid khaki\"> (canadianclinicaldrugdataset#9000152)</span></p><p><b>subject</b>: <a href=\"#Patient_d520ecd1-76a0-4894-b895-b8a5a971954e\">See above (Patient/d520ecd1-76a0-4894-b895-b8a5a971954e)</a></p><p><b>effective</b>: 2022-01-05</p></div>"
        },
        "status": "active",
        "medicationCodeableConcept": {
          "coding": [
            {
              "system": "https://fhir.infoway-inforoute.ca/CodeSystem/canadianclinicaldrugdataset",
              "code": "9000152",
              "display": "indomethacin 50 mg oral capsule"
            }
          ],
          "text": "indomethacin 50 mg oral capsule"
        },
        "subject": {
          "reference": "Patient/d520ecd1-76a0-4894-b895-b8a5a971954e"
        },
        "effectiveDateTime": "2022-01-05",
        "dosage": [
          {
            "text": "tid prn for gout attacks"
          }
        ]
      }
    },
    {
      "fullUrl": "AllergyIntolerance/ceea9c48-759d-4636-a11e-0a067b32973a",
      "resource": {
        "resourceType": "AllergyIntolerance",
        "id": "ceea9c48-759d-4636-a11e-0a067b32973a",
        "meta": {
          "profile": [
            "http://fhir.infoway-inforoute.ca/io/psca/StructureDefinition/allergyintolerance-ca-ps"
          ]
        },
        "text": {
          "status": "generated",
          "div": "<div xmlns=\"http://www.w3.org/1999/xhtml\"><p><b>Generated Narrative: AllergyIntolerance</b></p><div style=\"display: inline-block; background-color: #d9e0e7; padding: 6px; margin: 4px; border: 1px solid #8da1b4; border-radius: 5px; line-height: 60%\"><p style=\"margin-bottom: 0px\">Resource AllergyIntolerance \"ceea9c48-759d-4636-a11e-0a067b32973a\" </p></div><p><b>clinicalStatus</b>: Active <span style=\"background: LightGoldenRodYellow; margin: 4px; border: 1px solid khaki\"> (<a href=\"http://terminology.hl7.org/3.1.0/CodeSystem-allergyintolerance-clinical.html\">AllergyIntolerance Clinical Status Codes</a>#active)</span></p><p><b>type</b>: intolerance</p><p><b>code</b>: Metformin (substance) <span style=\"background: LightGoldenRodYellow; margin: 4px; border: 1px solid khaki\"> (<a href=\"https://browser.ihtsdotools.org/\">SNOMED CT</a>#294740006)</span></p><p><b>patient</b>: <a href=\"#Patient_d520ecd1-76a0-4894-b895-b8a5a971954e\">See above (Patient/d520ecd1-76a0-4894-b895-b8a5a971954e)</a></p></div>"
        },
        "clinicalStatus": {
          "coding": [
            {
              "system": "http://terminology.hl7.org/CodeSystem/allergyintolerance-clinical",
              "code": "active",
              "display": "Active"
            }
          ]
        },
        "type": "intolerance",
        "code": {
          "coding": [
            {
              "system": "http://snomed.info/sct",
              "version": "http://snomed.info/sct/20611000087101",
              "code": "372567009",
              "display": "Metformin (substance)"
            }
          ],
          "text": "Metformin (substance)"
        },
        "patient": {
          "reference": "Patient/d520ecd1-76a0-4894-b895-b8a5a971954e"
        }
      }
    },
    {
      "fullUrl": "AllergyIntolerance/96960895-95ed-4516-ad73-eea8647afb80",
      "resource": {
        "resourceType": "AllergyIntolerance",
        "id": "96960895-95ed-4516-ad73-eea8647afb80",
        "meta": {
          "profile": [
            "http://fhir.infoway-inforoute.ca/io/psca/StructureDefinition/allergyintolerance-ca-ps"
          ]
        },
        "text": {
          "status": "generated",
          "div": "<div xmlns=\"http://www.w3.org/1999/xhtml\"><p><b>Generated Narrative: AllergyIntolerance</b></p><div style=\"display: inline-block; background-color: #d9e0e7; padding: 6px; margin: 4px; border: 1px solid #8da1b4; border-radius: 5px; line-height: 60%\"><p style=\"margin-bottom: 0px\">Resource AllergyIntolerance \"96960895-95ed-4516-ad73-eea8647afb80\" </p></div><p><b>clinicalStatus</b>: Active <span style=\"background: LightGoldenRodYellow; margin: 4px; border: 1px solid khaki\"> (<a href=\"http://terminology.hl7.org/3.1.0/CodeSystem-allergyintolerance-clinical.html\">AllergyIntolerance Clinical Status Codes</a>#active)</span></p><p><b>type</b>: allergy</p><p><b>code</b>: Colchicine (substance) <span style=\"background: LightGoldenRodYellow; margin: 4px; border: 1px solid khaki\"> (<a href=\"https://browser.ihtsdotools.org/\">SNOMED CT</a>#294215003)</span></p><p><b>patient</b>: <a href=\"#Patient_d520ecd1-76a0-4894-b895-b8a5a971954e\">See above (Patient/d520ecd1-76a0-4894-b895-b8a5a971954e)</a></p></div>"
        },
        "clinicalStatus": {
          "coding": [
            {
              "system": "http://terminology.hl7.org/CodeSystem/allergyintolerance-clinical",
              "code": "active",
              "display": "Active"
            }
          ]
        },
        "type": "allergy",
        "code": {
          "coding": [
            {
              "system": "http://snomed.info/sct",
              "version": "http://snomed.info/sct/20611000087101",
              "code": "387413002",
              "display": "Colchicine (substance)"
            },
            {
              "system": "http://snomed.info/sct",
              "version": "http://snomed.info/sct/20611000087101",
              "code": "294215003",
              "display": "Allergy to colchicine (finding)"
            }
          ],
          "text": "Colchicine"
        },
        "patient": {
          "reference": "Patient/d520ecd1-76a0-4894-b895-b8a5a971954e"
        }
      }
    },
    {
      "fullUrl": "Condition/3ea95c2b-cd7d-4ad4-b5f7-10c6563180e7",
      "resource": {
        "resourceType": "Condition",
        "id": "3ea95c2b-cd7d-4ad4-b5f7-10c6563180e7",
        "meta": {
          "profile": [
            "http://fhir.infoway-inforoute.ca/io/psca/StructureDefinition/condition-ca-ps"
          ]
        },
        "text": {
          "status": "generated",
          "div": "<div xmlns=\"http://www.w3.org/1999/xhtml\"><p><b>Generated Narrative: Condition</b></p><div style=\"display: inline-block; background-color: #d9e0e7; padding: 6px; margin: 4px; border: 1px solid #8da1b4; border-radius: 5px; line-height: 60%\"><p style=\"margin-bottom: 0px\">Resource Condition \"3ea95c2b-cd7d-4ad4-b5f7-10c6563180e7\" </p></div><p><b>clinicalStatus</b>: Active <span style=\"background: LightGoldenRodYellow; margin: 4px; border: 1px solid khaki\"> (<a href=\"http://terminology.hl7.org/3.1.0/CodeSystem-condition-clinical.html\">Condition Clinical Status Codes</a>#active)</span></p><p><b>code</b>: Diabetes mellitus type 2 (disorder) <span style=\"background: LightGoldenRodYellow; margin: 4px; border: 1px solid khaki\"> (<a href=\"https://browser.ihtsdotools.org/\">SNOMED CT</a>#44054006)</span></p><p><b>subject</b>: <a href=\"#Patient_d520ecd1-76a0-4894-b895-b8a5a971954e\">See above (Patient/d520ecd1-76a0-4894-b895-b8a5a971954e)</a></p></div>"
        },
        "clinicalStatus": {
          "coding": [
            {
              "system": "http://terminology.hl7.org/CodeSystem/condition-clinical",
              "code": "active"
            }
          ]
        },
        "code": {
          "coding": [
            {
              "system": "http://snomed.info/sct",
              "version": "http://snomed.info/sct/20611000087101",
              "code": "44054006",
              "display": "Diabetes mellitus type 2 (disorder)"
            }
          ],
          "text": "Diabetes mellitus type 2 (disorder)"
        },
        "subject": {
          "reference": "Patient/d520ecd1-76a0-4894-b895-b8a5a971954e"
        }
      }
    },
    {
      "fullUrl": "Condition/56413e31-e24a-4bfe-b85f-70a07dd1a03b",
      "resource": {
        "resourceType": "Condition",
        "id": "56413e31-e24a-4bfe-b85f-70a07dd1a03b",
        "meta": {
          "profile": [
            "http://fhir.infoway-inforoute.ca/io/psca/StructureDefinition/condition-ca-ps"
          ]
        },
        "text": {
          "status": "generated",
          "div": "<div xmlns=\"http://www.w3.org/1999/xhtml\"><p><b>Generated Narrative: Condition</b></p><div style=\"display: inline-block; background-color: #d9e0e7; padding: 6px; margin: 4px; border: 1px solid #8da1b4; border-radius: 5px; line-height: 60%\"><p style=\"margin-bottom: 0px\">Resource Condition \"56413e31-e24a-4bfe-b85f-70a07dd1a03b\" </p></div><p><b>clinicalStatus</b>: Active <span style=\"background: LightGoldenRodYellow; margin: 4px; border: 1px solid khaki\"> (<a href=\"http://terminology.hl7.org/3.1.0/CodeSystem-condition-clinical.html\">Condition Clinical Status Codes</a>#active)</span></p><p><b>code</b>: Hypertensive disorder, systemic arterial (disorder) <span style=\"background: LightGoldenRodYellow; margin: 4px; border: 1px solid khaki\"> (<a href=\"https://browser.ihtsdotools.org/\">SNOMED CT</a>#38341003)</span></p><p><b>subject</b>: <a href=\"#Patient_d520ecd1-76a0-4894-b895-b8a5a971954e\">See above (Patient/d520ecd1-76a0-4894-b895-b8a5a971954e)</a></p></div>"
        },
        "clinicalStatus": {
          "coding": [
            {
              "system": "http://terminology.hl7.org/CodeSystem/condition-clinical",
              "code": "active"
            }
          ]
        },
        "code": {
          "coding": [
            {
              "system": "http://snomed.info/sct",
              "version": "http://snomed.info/sct/20611000087101",
              "code": "38341003",
              "display": "Hypertensive disorder, systemic arterial (disorder)"
            }
          ],
          "text": "Hypertensive disorder, systemic arterial (disorder)"
        },
        "subject": {
          "reference": "Patient/d520ecd1-76a0-4894-b895-b8a5a971954e"
        }
      }
    },
    {
      "fullUrl": "Condition/3e464c5b-4555-4521-aa8e-c233a28abc68",
      "resource": {
        "resourceType": "Condition",
        "id": "3e464c5b-4555-4521-aa8e-c233a28abc68",
        "meta": {
          "profile": [
            "http://fhir.infoway-inforoute.ca/io/psca/StructureDefinition/condition-ca-ps"
          ]
        },
        "text": {
          "status": "generated",
          "div": "<div xmlns=\"http://www.w3.org/1999/xhtml\"><p><b>Generated Narrative: Condition</b></p><div style=\"display: inline-block; background-color: #d9e0e7; padding: 6px; margin: 4px; border: 1px solid #8da1b4; border-radius: 5px; line-height: 60%\"><p style=\"margin-bottom: 0px\">Resource Condition \"3e464c5b-4555-4521-aa8e-c233a28abc68\" </p></div><p><b>clinicalStatus</b>: Active <span style=\"background: LightGoldenRodYellow; margin: 4px; border: 1px solid khaki\"> (<a href=\"http://terminology.hl7.org/3.1.0/CodeSystem-condition-clinical.html\">Condition Clinical Status Codes</a>#active)</span></p><p><b>code</b>: Inflammatory disorder due to increased blood urate level (disorder) <span style=\"background: LightGoldenRodYellow; margin: 4px; border: 1px solid khaki\"> (<a href=\"https://browser.ihtsdotools.org/\">SNOMED CT</a>#90560007)</span></p><p><b>subject</b>: <a href=\"#Patient_d520ecd1-76a0-4894-b895-b8a5a971954e\">See above (Patient/d520ecd1-76a0-4894-b895-b8a5a971954e)</a></p></div>"
        },
        "clinicalStatus": {
          "coding": [
            {
              "system": "http://terminology.hl7.org/CodeSystem/condition-clinical",
              "code": "active"
            }
          ]
        },
        "code": {
          "coding": [
            {
              "system": "http://snomed.info/sct",
              "version": "http://snomed.info/sct/20611000087101",
              "code": "90560007",
              "display": "Inflammatory disorder due to increased blood urate level (disorder)"
            }
          ],
          "text": "Inflammatory disorder due to increased blood urate level (disorder)"
        },
        "subject": {
          "reference": "Patient/d520ecd1-76a0-4894-b895-b8a5a971954e"
        }
      }
    },
    {
      "fullUrl": "Condition/6fa1d634-89ee-4402-9642-5cb8f309edaf",
      "resource": {
        "resourceType": "Condition",
        "id": "6fa1d634-89ee-4402-9642-5cb8f309edaf",
        "meta": {
          "profile": [
            "http://fhir.infoway-inforoute.ca/io/psca/StructureDefinition/condition-ca-ps"
          ]
        },
        "text": {
          "status": "generated",
          "div": "<div xmlns=\"http://www.w3.org/1999/xhtml\"><p><b>Generated Narrative: Condition</b></p><div style=\"display: inline-block; background-color: #d9e0e7; padding: 6px; margin: 4px; border: 1px solid #8da1b4; border-radius: 5px; line-height: 60%\"><p style=\"margin-bottom: 0px\">Resource Condition \"6fa1d634-89ee-4402-9642-5cb8f309edaf\" </p></div><p><b>clinicalStatus</b>: Active <span style=\"background: LightGoldenRodYellow; margin: 4px; border: 1px solid khaki\"> (<a href=\"http://terminology.hl7.org/3.1.0/CodeSystem-condition-clinical.html\">Condition Clinical Status Codes</a>#active)</span></p><p><b>code</b>: Alcohol abuse (disorder) <span style=\"background: LightGoldenRodYellow; margin: 4px; border: 1px solid khaki\"> (<a href=\"https://browser.ihtsdotools.org/\">SNOMED CT</a>#15167005)</span></p><p><b>subject</b>: <a href=\"#Patient_d520ecd1-76a0-4894-b895-b8a5a971954e\">See above (Patient/d520ecd1-76a0-4894-b895-b8a5a971954e)</a></p></div>"
        },
        "clinicalStatus": {
          "coding": [
            {
              "system": "http://terminology.hl7.org/CodeSystem/condition-clinical",
              "code": "active"
            }
          ]
        },
        "code": {
          "coding": [
            {
              "system": "http://snomed.info/sct",
              "version": "http://snomed.info/sct/20611000087101",
              "code": "15167005",
              "display": "Alcohol abuse (disorder)"
            }
          ],
          "text": "Alcohol abuse (disorder)"
        },
        "subject": {
          "reference": "Patient/d520ecd1-76a0-4894-b895-b8a5a971954e"
        }
      }
    },
    {
      "fullUrl": "Condition/92e9b7a6-7647-4cf7-8feb-4027b59cba4b",
      "resource": {
        "resourceType": "Condition",
        "id": "92e9b7a6-7647-4cf7-8feb-4027b59cba4b",
        "meta": {
          "profile": [
            "http://fhir.infoway-inforoute.ca/io/psca/StructureDefinition/condition-ca-ps"
          ]
        },
        "text": {
          "status": "generated",
          "div": "<div xmlns=\"http://www.w3.org/1999/xhtml\"><p><b>Generated Narrative: Condition</b></p><div style=\"display: inline-block; background-color: #d9e0e7; padding: 6px; margin: 4px; border: 1px solid #8da1b4; border-radius: 5px; line-height: 60%\"><p style=\"margin-bottom: 0px\">Resource Condition \"92e9b7a6-7647-4cf7-8feb-4027b59cba4b\" </p></div><p><b>clinicalStatus</b>: Resolved <span style=\"background: LightGoldenRodYellow; margin: 4px; border: 1px solid khaki\"> (<a href=\"http://terminology.hl7.org/3.1.0/CodeSystem-condition-clinical.html\">Condition Clinical Status Codes</a>#resolved)</span></p><p><b>code</b>: Inflammation of pancreas caused by alcohol (disorder) <span style=\"background: LightGoldenRodYellow; margin: 4px; border: 1px solid khaki\"> (<a href=\"https://browser.ihtsdotools.org/\">SNOMED CT</a>#445507008)</span></p><p><b>subject</b>: <a href=\"#Patient_d520ecd1-76a0-4894-b895-b8a5a971954e\">See above (Patient/d520ecd1-76a0-4894-b895-b8a5a971954e)</a></p><p><b>recordedDate</b>: 2020</p></div>"
        },
        "clinicalStatus": {
          "coding": [
            {
              "system": "http://terminology.hl7.org/CodeSystem/condition-clinical",
              "code": "resolved"
            }
          ]
        },
        "code": {
          "coding": [
            {
              "system": "http://snomed.info/sct",
              "version": "http://snomed.info/sct/20611000087101",
              "code": "445507008",
              "display": "Inflammation of pancreas caused by alcohol (disorder)"
            }
          ],
          "text": "Inflammation of pancreas caused by alcohol (disorder)"
        },
        "subject": {
          "reference": "Patient/d520ecd1-76a0-4894-b895-b8a5a971954e"
        },
        "recordedDate": "2020"
      }
    },
    {
      "fullUrl": "Procedure/1ab3d8c8-f598-488e-a85e-781fc093a58e",
      "resource": {
        "resourceType": "Procedure",
        "id": "1ab3d8c8-f598-488e-a85e-781fc093a58e",
        "meta": {
          "profile": [
            "http://fhir.infoway-inforoute.ca/io/psca/StructureDefinition/procedure-ca-ps"
          ]
        },
        "text": {
          "status": "generated",
          "div": "<div xmlns=\"http://www.w3.org/1999/xhtml\"><p><b>Generated Narrative: Procedure</b></p><div style=\"display: inline-block; background-color: #d9e0e7; padding: 6px; margin: 4px; border: 1px solid #8da1b4; border-radius: 5px; line-height: 60%\"><p style=\"margin-bottom: 0px\">Resource Procedure \"1ab3d8c8-f598-488e-a85e-781fc093a58e\" </p></div><p><b>status</b>: completed</p><p><b>code</b>: Cholecystectomy (procedure) <span style=\"background: LightGoldenRodYellow; margin: 4px; border: 1px solid khaki\"> (<a href=\"https://browser.ihtsdotools.org/\">SNOMED CT</a>#38102005)</span></p><p><b>subject</b>: <a href=\"#Patient_d520ecd1-76a0-4894-b895-b8a5a971954e\">See above (Patient/d520ecd1-76a0-4894-b895-b8a5a971954e)</a></p></div>"
        },
        "status": "completed",
        "code": {
          "coding": [
            {
              "system": "http://snomed.info/sct",
              "version": "http://snomed.info/sct/20611000087101",
              "code": "38102005",
              "display": "Cholecystectomy (procedure)"
            }
          ],
          "text": "Cholecystectomy (procedure)"
        },
        "subject": {
          "reference": "Patient/d520ecd1-76a0-4894-b895-b8a5a971954e"
        },
        "performedDateTime": "2020-01-05"
      }
    },
    {
      "fullUrl": "Procedure/97a5cddb-bd42-47d6-8c95-1cd709bd9e75",
      "resource": {
        "resourceType": "Procedure",
        "id": "97a5cddb-bd42-47d6-8c95-1cd709bd9e75",
        "meta": {
          "profile": [
            "http://fhir.infoway-inforoute.ca/io/psca/StructureDefinition/procedure-ca-ps"
          ]
        },
        "text": {
          "status": "generated",
          "div": "<div xmlns=\"http://www.w3.org/1999/xhtml\"><p><b>Generated Narrative: Procedure</b></p><div style=\"display: inline-block; background-color: #d9e0e7; padding: 6px; margin: 4px; border: 1px solid #8da1b4; border-radius: 5px; line-height: 60%\"><p style=\"margin-bottom: 0px\">Resource Procedure \"97a5cddb-bd42-47d6-8c95-1cd709bd9e75\" </p></div><p><b>status</b>: completed</p><p><b>code</b>: Endoscopy of stomach (procedure) <span style=\"background: LightGoldenRodYellow; margin: 4px; border: 1px solid khaki\"> (<a href=\"https://browser.ihtsdotools.org/\">SNOMED CT</a>#386831001)</span></p><p><b>subject</b>: <a href=\"#Patient_d520ecd1-76a0-4894-b895-b8a5a971954e\">See above (Patient/d520ecd1-76a0-4894-b895-b8a5a971954e)</a></p><p><b>performed</b>: 2020</p></div>"
        },
        "status": "completed",
        "code": {
          "coding": [
            {
              "system": "http://snomed.info/sct",
              "version": "http://snomed.info/sct/20611000087101",
              "code": "386831001",
              "display": "Endoscopy of stomach (procedure)"
            }
          ],
          "text": "Endoscopy of stomach (procedure)"
        },
        "subject": {
          "reference": "Patient/d520ecd1-76a0-4894-b895-b8a5a971954e"
        },
        "performedDateTime": "2020"
      }
    },
    {
      "fullUrl": "Procedure/84596160-3d4a-4b93-a6d2-26b867b83b69",
      "resource": {
        "resourceType": "Procedure",
        "id": "84596160-3d4a-4b93-a6d2-26b867b83b69",
        "meta": {
          "profile": [
            "http://fhir.infoway-inforoute.ca/io/psca/StructureDefinition/procedure-ca-ps"
          ]
        },
        "text": {
          "status": "generated",
          "div": "<div xmlns=\"http://www.w3.org/1999/xhtml\"><p><b>Generated Narrative: Procedure</b></p><div style=\"display: inline-block; background-color: #d9e0e7; padding: 6px; margin: 4px; border: 1px solid #8da1b4; border-radius: 5px; line-height: 60%\"><p style=\"margin-bottom: 0px\">Resource Procedure \"84596160-3d4a-4b93-a6d2-26b867b83b69\" </p></div><p><b>status</b>: completed</p><p><b>code</b>: Colonoscopy (procedure) <span style=\"background: LightGoldenRodYellow; margin: 4px; border: 1px solid khaki\"> (<a href=\"https://browser.ihtsdotools.org/\">SNOMED CT</a>#73761001)</span></p><p><b>subject</b>: <a href=\"#Patient_d520ecd1-76a0-4894-b895-b8a5a971954e\">See above (Patient/d520ecd1-76a0-4894-b895-b8a5a971954e)</a></p><p><b>performed</b>: 2020</p></div>"
        },
        "status": "completed",
        "code": {
          "coding": [
            {
              "system": "http://snomed.info/sct",
              "version": "http://snomed.info/sct/20611000087101",
              "code": "73761001",
              "display": "Colonoscopy (procedure)"
            }
          ],
          "text": "Colonoscopy (procedure)"
        },
        "subject": {
          "reference": "Patient/d520ecd1-76a0-4894-b895-b8a5a971954e"
        },
        "performedDateTime": "2020"
      }
    },
    {
      "fullUrl": "Observation/35137582-aca8-4b29-9fbc-d27693dbace8",
      "resource": {
        "resourceType": "Observation",
        "id": "35137582-aca8-4b29-9fbc-d27693dbace8",
        "meta": {
          "profile": [
            "http://hl7.org/fhir/StructureDefinition/bp"
          ]
        },
        "status": "final",
        "category": [
          {
            "coding": [
              {
                "system": "http://terminology.hl7.org/CodeSystem/observation-category",
                "code": "vital-signs",
                "display": "Vital Signs"
              }
            ]
          }
        ],
        "code": {
          "coding": [
            {
              "system": "http://loinc.org",
              "code": "85354-9",
              "display": "Blood pressure panel with all children optional"
            }
          ],
          "text": "Blood pressure systolic and diastolic"
        },
        "subject": {
          "reference": "Patient/d520ecd1-76a0-4894-b895-b8a5a971954e"
        },
        "effectiveDateTime": "2022-01-05",
        "component" : [
          {
            "code": {
              "coding": [
                {
                  "system": "http://loinc.org",
                  "code": "8480-6",
                  "display": "Systolic Blood Pressure"
                }
              ],
              "text": "Systolic Blood Pressure"
            },
            "valueQuantity": {
              "value": 140.0,
              "unit" : "mmHg",
              "system": "http://unitsofmeasure.org",
              "code": "mm[Hg]"
            }
          },
          {
            "code": {
              "coding": [
                {
                  "system": "http://loinc.org",
                  "code": "8462-4",
                  "display": "Diastolic Blood Pressure"
                }
              ],
              "text": "Diastolic Blood Pressure"
            },
            "valueQuantity": {
              "value": 88.0,
              "unit" : "mmHg",
              "system": "http://unitsofmeasure.org",
              "code": "mm[Hg]"
            }
          }
        ]
        }
    },
    {
      "fullUrl": "Observation/67e42ace-4563-4cb4-9e5f-09314495a4e2",
      "resource": {
        "resourceType": "Observation",
        "id": "67e42ace-4563-4cb4-9e5f-09314495a4e2",
        "meta": {
          "profile": [
            "http://hl7.org/fhir/StructureDefinition/heartrate"
          ]
        },
        "text": {
          "status": "generated",
          "div": "<div xmlns=\"http://www.w3.org/1999/xhtml\"><p><b>Generated Narrative: Observation</b></p><div style=\"display: inline-block; background-color: #d9e0e7; padding: 6px; margin: 4px; border: 1px solid #8da1b4; border-radius: 5px; line-height: 60%\"><p style=\"margin-bottom: 0px\">Resource Observation \"67e42ace-4563-4cb4-9e5f-09314495a4e2\" </p></div><p><b>status</b>: final</p><p><b>code</b>: Heart Rate <span style=\"background: LightGoldenRodYellow; margin: 4px; border: 1px solid khaki\"> (<a href=\"https://loinc.org/\">LOINC</a>#8867-4)</span></p><p><b>subject</b>: <a href=\"#Patient_d520ecd1-76a0-4894-b895-b8a5a971954e\">See above (Patient/d520ecd1-76a0-4894-b895-b8a5a971954e)</a></p><p><b>effective</b>: 2022-01-05</p><p><b>value</b>: 78.0 {beats}/min<span style=\"background: LightGoldenRodYellow\"> (Details: UCUM code {beats}/min = '{beats}/min')</span></p></div>"
        },
        "status": "final",
        "category": [
          {
            "coding": [
              {
                "system": "http://terminology.hl7.org/CodeSystem/observation-category",
                "code": "vital-signs",
                "display": "Vital Signs"
              }
            ]
          }
        ],
        "code": {
          "coding": [
            {
              "system": "http://loinc.org",
              "code": "8867-4",
              "display": "Heart Rate"
            }
          ],
          "text": "Heart Rate"
        },
        "subject": {
          "reference": "Patient/d520ecd1-76a0-4894-b895-b8a5a971954e"
        },
        "effectiveDateTime": "2022-01-05",
        "valueQuantity": {
          "value": 78.0,
          "unit": "beats/minute",
          "system": "http://unitsofmeasure.org",
          "code": "/min"
        }
      }
    },
    {
      "fullUrl": "Observation/f560d566-bce3-4cc2-b076-a983f1cfc179",
      "resource": {
        "resourceType": "Observation",
        "id": "f560d566-bce3-4cc2-b076-a983f1cfc179",
        "meta": {
          "profile": [
            "http://hl7.org/fhir/StructureDefinition/bodyweight"
          ]
        },
        "status": "final",
        "category": [
          {
            "coding": [
              {
                "system": "http://terminology.hl7.org/CodeSystem/observation-category",
                "code": "vital-signs",
                "display": "Vital Signs"
              }
            ]
          }
        ],
        "code": {
          "coding": [
            {
              "system": "http://loinc.org",
              "code": "29463-7",
              "display": "Body Weight"
            }
          ],
          "text": "Body Weight"
        },
        "subject": {
          "reference": "Patient/d520ecd1-76a0-4894-b895-b8a5a971954e"
        },
        "effectiveDateTime": "2022-01-05",
        "valueQuantity": {
          "value": 230.0,
          "unit": "lbs",
          "system": "http://unitsofmeasure.org",
          "code": "[lb_av]"
        }
      }
    },
    {
      "fullUrl": "Observation/04efa9cc-56d3-4d7b-bf2d-133bcde0fca2",
      "resource": {
        "resourceType": "Observation",
        "id": "04efa9cc-56d3-4d7b-bf2d-133bcde0fca2",
        "meta": {
          "profile": [
            "http://hl7.org/fhir/StructureDefinition/bodyheight"
          ]
        },
        "text": {
          "status": "generated",
          "div": "<div xmlns=\"http://www.w3.org/1999/xhtml\"><p><b>Generated Narrative: Observation</b></p><div style=\"display: inline-block; background-color: #d9e0e7; padding: 6px; margin: 4px; border: 1px solid #8da1b4; border-radius: 5px; line-height: 60%\"><p style=\"margin-bottom: 0px\">Resource Observation \"04efa9cc-56d3-4d7b-bf2d-133bcde0fca2\" </p></div><p><b>status</b>: final</p><p><b>code</b>: Body Height <span style=\"background: LightGoldenRodYellow; margin: 4px; border: 1px solid khaki\"> (<a href=\"https://loinc.org/\">LOINC</a>#8302-2)</span></p><p><b>subject</b>: <a href=\"#Patient_d520ecd1-76a0-4894-b895-b8a5a971954e\">See above (Patient/d520ecd1-76a0-4894-b895-b8a5a971954e)</a></p><p><b>effective</b>: 2022-01-05</p><p><b>value</b>: 72.0 [in_i]<span style=\"background: LightGoldenRodYellow\"> (Details: UCUM code [in_i] = '[in_i]')</span></p></div>"
        },
        "status": "final",
        "category": [
          {
            "coding": [
              {
                "system": "http://terminology.hl7.org/CodeSystem/observation-category",
                "code": "vital-signs",
                "display": "Vital Signs"
              }
            ]
          }
        ],
        "code": {
          "coding": [
            {
              "system": "http://loinc.org",
              "code": "8302-2",
              "display": "Body Height"
            }
          ],
          "text": "Body Height"
        },
        "subject": {
          "reference": "Patient/d520ecd1-76a0-4894-b895-b8a5a971954e"
        },
        "effectiveDateTime": "2022-01-05",
        "valueQuantity": {
          "value": 72.0,
          "unit": "in",
          "system": "http://unitsofmeasure.org",
          "code": "[in_i]"
        }
      }
    },
    {
      "fullUrl": "Observation/e27162fe-3b06-4ff6-9043-b96f30ba27fe",
      "resource": {
        "resourceType": "Observation",
        "id": "e27162fe-3b06-4ff6-9043-b96f30ba27fe",
        "meta": {
          "profile": [
            "http://hl7.org/fhir/StructureDefinition/vitalsigns"
          ]
        },
        "text": {
          "status": "generated",
          "div": "<div xmlns=\"http://www.w3.org/1999/xhtml\"><p><b>Generated Narrative: Observation</b></p><div style=\"display: inline-block; background-color: #d9e0e7; padding: 6px; margin: 4px; border: 1px solid #8da1b4; border-radius: 5px; line-height: 60%\"><p style=\"margin-bottom: 0px\">Resource Observation \"e27162fe-3b06-4ff6-9043-b96f30ba27fe\" </p></div><p><b>status</b>: final</p><p><b>code</b>: Waist Circumference <span style=\"background: LightGoldenRodYellow; margin: 4px; border: 1px solid khaki\"> (<a href=\"https://loinc.org/\">LOINC</a>#8280-0 \"Waist Circumference at umbilicus by Tape measure\")</span></p><p><b>subject</b>: <a href=\"#Patient_d520ecd1-76a0-4894-b895-b8a5a971954e\">See above (Patient/d520ecd1-76a0-4894-b895-b8a5a971954e)</a></p><p><b>effective</b>: 2022-01-05</p><p><b>value</b>: 38.0 [in_i]<span style=\"background: LightGoldenRodYellow\"> (Details: UCUM code [in_i] = '[in_i]')</span></p></div>"
        },
        "status": "final",
        "category": [
          {
            "coding": [
              {
                "system": "http://terminology.hl7.org/CodeSystem/observation-category",
                "code": "vital-signs",
                "display": "Vital Signs"
              }
            ]
          }
        ],
        "code": {
          "coding": [
            {
              "system": "http://loinc.org",
              "code": "8280-0",
              "display": "Waist Circumference at umbilicus by Tape measure"
            }
          ],
          "text": "Waist Circumference"
        },
        "subject": {
          "reference": "Patient/d520ecd1-76a0-4894-b895-b8a5a971954e"
        },
        "effectiveDateTime": "2022-01-05",
        "valueQuantity": {
          "value": 38.0,
          "unit": "in",
          "system": "http://unitsofmeasure.org",
          "code": "[in_i]"
        }
      }
    }
  ]
}
